Folder: 2015-16/finalCode/baseStationCode/xRay/xrf_analysis

Note: finalCode/baseStationCode/xRay/README.md
# Husky Robotics Team XRF Spectroscopy Tool
## Last updated by Aakash Sethi
### Email: asethi77@cs.washington.edu
### Phone: 425-780-5274

This folder contains tools used to read sample data from an AmpTek X-Ray detector and identify elements contained within a sample.

## Required Software

In order to use the tools here, you must have the following already installed on your computer:

* (Anaconda)[https://www.continuum.io/downloads]
    * Anaconda is a Python programming environment that has tools for plotting and numerical analysis built-in. I
      *highly* recommend using this to install all the packages you will need to run this tool, but specifically,
      you need to have NumPy, SciPy, and MatPlotLib. If there is any issue with installing Anaconda, contact me
      either by phone or email (listed above) and I will help you get the packages installed manually. **Note for
      installation: You should get two check boxes to select when installing: one about adding Python to the PATH,
      and another about making Python 3.5.1 the default interpreter. Make sure to select both check boxes.**
      
* (MinGW)[http://www.mingw.org/]
    * MinGW is a tool used to compile C++ programs on Windows. **Note for Brandon: This tool should already be installed on
      your computer, so you don't have to worry about installing and setting this up.**

File: PC 98B Plastic Cllay Std Ref.csv
PC 98B Plastic Cllay Std Ref.csv
Energy (keV), counts, sigma, bkg
-0.032387, 0, 1.41421, 0
0.0574638, 0, 1.41421, 0
0.147315, 0, 1.41421, 0
0.237165, 0, 1.41421, 0
0.327016, 0, 1.41421, 0
0.416867, 0, 1.41421, 0
0.506717, 5, 2.64575, 0.0012565
0.596568, 5, 2.64575, 0.00937901
0.686419, 2, 2, 0.0235616
0.77627, 2, 2, 0.0436883
0.86612, 2, 2, 0.0669103
0.955971, 0, 1.41421, 0.0933481
1.04582, 2, 2, 0.122758
1.13567, 3, 2.23607, 0.152515
1.22552, 2, 2, 0.184261
1.31537, 5, 2.64575, 0.217577
1.40522, 3, 2.23607, 0.251348
1.49508, 2, 2, 0.286379
1.58493, 1, 1.73205, 0.325543
1.67478, 0, 1.41421, 0.365286
1.76463, 1, 1.73205, 0.42312
1.85448, 1, 1.73205, 0.488798
1.94433, 0, 1.41421, 0.548482
2.03418, 1, 1.73205, 0.589529
2.12403, 0, 1.41421, 0.62739
2.21388, 1, 1.73205, 0.663956
2.30373, 0, 1.41421, 0.701758
2.39358, 1, 1.73205, 0.737862
2.48343, 2, 2, 0.774309
2.57328, 1, 1.73205, 0.811805
2.66313, 1, 1.73205, 0.849404
2.75299, 2, 2, 0.888112
2.84284, 0, 1.41421, 0.997021
2.93269, 16, 4.24264, 1.09987
3.02254, 24, 5.09902, 1.19046
3.11239, 3, 2.23607, 1.26708
3.20224, 3, 2.23607, 1.32853
3.29209, 6, 2.82843, 1.37358
3.38194, 12, 3.74166, 1.40897
3.47179, 7, 3, 1.44089
3.56164, 1, 1.73205, 1.46789
3.65149, 3, 2.23607, 1.49117
3.74134, 8, 3.16228, 1.51624
3.83119, 5, 2.64575, 1.53931
3.92105, 2, 2, 1.62027
4.0109, 5, 2.64575, 1.78422
4.10075, 1, 1.73205, 1.94442
4.1906, 2, 2, 2.08732
4.28045, 3, 2.23607, 2.20461
4.3703, 2, 2, 2.29285
4.46015, 6, 2.82843, 2.35613
4.55, 11, 3.60555, 2.39455
4.63985, 4, 2.44949, 2.41699
4.7297, 4, 2.44949, 2.43385
4.81955, 3, 2.23607, 2.44327
4.9094, 3, 2.23607, 2.45064
4.99925, 8, 3.16228, 2.45438
5.0891, 7, 3, 2.45799
5.17896, 1, 1.73205, 2.5044
5.26881, 2, 2, 2.7979
5.35866, 3, 2.23607, 3.08036
5.44851, 8, 3.16228, 3.34795
5.53836, 8, 3.16228, 3.59586
5.62821, 6, 2.82843, 3.7813
5.71806, 4, 2.44949, 3.88289
5.80791, 6, 2.82843, 3.96376
5.89776, 2, 2, 4.04663
5.98761, 5, 2.64575, 4.12706
6.07746, 13, 3.87298, 4.20862
6.16731, 2, 2, 4.32874
6.25716, 11, 3.60555, 4.67715
6.34701, 39, 6.40312, 5.01004
6.43687, 45, 6.85565, 5.28908
6.52672, 12, 3.74166, 5.50023
6.61657, 12, 3.74166, 5.64353
6.70642, 7, 3, 5.78129
6.79627, 9, 3.31662, 6.13666
6.88612, 7, 3, 6.49767
6.97597, 17, 4.3589, 6.86416
7.06582, 21, 4.79583, 7.21827
7.15567, 18, 4.47214, 7.56192
7.24552, 9, 3.31662, 7.8272
7.33537, 8, 3.16228, 8.01099
7.42522, 12, 3.74166, 8.1317
7.51507, 11, 3.60555, 8.21473
7.60492, 14, 4, 8.25266
7.69478, 16, 4.24264, 8.27113
7.78463, 33, 5.91608, 8.2459
7.87448, 28, 5.47723, 8.19604
7.96433, 50, 7.2111, 8.12329
8.05418, 61, 7.93725, 8.02226
8.14403, 47, 7, 7.91216
8.23388, 19, 4.58258, 7.7893
8.32373, 7, 3, 7.66469
8.41358, 6, 2.82843, 7.54171
8.50343, 12, 3.74166, 7.76863
8.59328, 11, 3.60555, 8.47571
8.68313, 15, 4.12311, 9.10757
8.77298, 16, 4.24264, 9.69338
8.86283, 17, 4.3589, 10.1518
8.95269, 27, 5.38516, 10.5182
9.04254, 34, 6, 10.755
9.13239, 42, 6.63325, 10.8709
9.22224, 38, 6.32456, 10.8841
9.31209, 54, 7.48331, 10.7696
9.40194, 37, 6.245, 10.599
9.49179, 25, 5.19615, 10.3458
9.58164, 21, 4.79583, 10.0611
9.67149, 17, 4.3589, 9.75024
9.76134, 14, 4, 9.4339
9.85119, 12, 3.74166, 9.07049
9.94104, 9, 3.31662, 8.76905
10.0309, 16, 4.24264, 8.90993
10.1207, 10, 3.4641, 8.94435
10.2106, 12, 3.74166, 9.16005
10.3004, 14, 4, 9.46213
10.3903, 19, 4.58258, 9.70846
10.4801, 43, 6.7082, 9.92852
10.57, 29, 5.56776, 10.0997
10.6598, 19, 4.58258, 10.2293
10.7497, 20, 4.69042, 10.3118
10.8396, 18, 4.47214, 10.3369
10.9294, 18, 4.47214, 10.3272
11.0193, 6, 2.82843, 10.263
11.1091, 12, 3.74166, 10.1677
11.199, 13, 3.87298, 10.0339
11.2888, 8, 3.16228, 9.87941
11.3787, 6, 2.82843, 9.70442
11.4685, 20, 4.69042, 9.51358
11.5584, 17, 4.3589, 9.32686
11.6482, 11, 3.60555, 9.13681
11.7381, 13, 3.87298, 9.08472
11.8279, 10, 3.4641, 9.18429
11.9178, 11, 3.60555, 9.20065
12.0076, 7, 3, 9.09506
12.0975, 12, 3.74166, 9.10027
12.1873, 18, 4.47214, 9.169
12.2772, 15, 4.12311, 9.20935
12.367, 11, 3.60555, 9.16257
12.4569, 17, 4.3589, 9.00953
12.5467, 24, 5.09902, 8.82281
12.6366, 29, 5.56776, 8.62918
12.7264, 12, 3.74166, 8.42153
12.8163, 12, 3.74166, 8.20852
12.9061, 12, 3.74166, 7.99117
12.996, 11, 3.60555, 7.78199
13.0858, 10, 3.4641, 7.57012
13.1757, 17, 4.3589, 7.46552
13.2655, 11, 3.60555, 7.3825
13.3554, 13, 3.87298, 7.29585
13.4452, 10, 3.4641, 7.20923
13.5351, 10, 3.4641, 7.12438
13.6249, 7, 3, 7.01223
13.7148, 9, 3.31662, 6.8455
13.8046, 9, 3.31662, 6.6681
13.8945, 11, 3.60555, 6.49009
13.9843, 7, 3, 6.31468
14.0742, 9, 3.31662, 6.37448
14.164, 8, 3.16228, 6.4272
14.2539, 6, 2.82843, 6.46756
14.3437, 8, 3.16228, 6.49237
14.4336, 7, 3, 6.50247
14.5234, 9, 3.31662, 6.4869
14.6133, 11, 3.60555, 6.45679
14.7031, 7, 3, 6.39927
14.793, 11, 3.60555, 6.3195
14.8828, 2, 2, 6.17671
14.9727, 9, 3.31662, 5.97487
15.0625, 7, 3, 5.74267
15.1524, 6, 2.82843, 5.49959
15.2422, 14, 4, 5.25384
15.3321, 8, 3.16228, 5.01277
15.4219, 9, 3.31662, 4.77738
15.5118, 5, 2.64575, 4.55899
15.6016, 9, 3.31662, 4.35388
15.6915, 8, 3.16228, 4.13616
15.7813, 3, 2.23607, 3.89847
15.8712, 5, 2.64575, 3.79048
15.961, 4, 2.44949, 3.77211
16.0509, 7, 3, 3.75121
16.1407, 2, 2, 3.73122
16.2306, 8, 3.16228, 3.70477
16.3204, 8, 3.16228, 3.66735
16.4103, 5, 2.64575, 3.60205
16.5001, 5, 2.64575, 3.55107
16.59, 4, 2.44949, 3.49921
16.6798, 6, 2.82843, 3.44671
16.7697, 3, 2.23607, 3.39075
16.8596, 7, 3, 3.33332
16.9494, 4, 2.44949, 3.27086
17.0393, 6, 2.82843, 3.20086
17.1291, 8, 3.16228, 3.12205
17.219, 5, 2.64575, 3.03593
17.3088, 6, 2.82843, 2.94327
17.3987, 4, 2.44949, 2.85958
17.4885, 2, 2, 2.80255
17.5784, 1, 1.73205, 2.72949
17.6682, 2, 2, 2.64006
17.7581, 7, 3, 2.54349
17.8479, 6, 2.82843, 2.44204
17.9378, 1, 1.73205, 2.34009
18.0276, 4, 2.44949, 2.23444
18.1175, 2, 2, 2.12828
18.2073, 3, 2.23607, 2.0209
18.2972, 4, 2.44949, 1.90406
18.387, 1, 1.73205, 1.7677
18.4769, 4, 2.44949, 1.62924
18.5667, 4, 2.44949, 1.49349
18.6566, 1, 1.73205, 1.36059
18.7464, 4, 2.44949, 1.23519
18.8363, 2, 2, 1.11253
18.9261, 5, 2.64575, 0.996041
19.016, 0, 1.41421, 0.911144
19.1058, 2, 2, 0.962596
19.1957, 4, 2.44949, 1.01347
19.2855, 2, 2, 1.06357
19.3754, 3, 2.23607, 1.10829
19.4652, 0, 1.41421, 1.13095
19.5551, 2, 2, 1.11435
19.6449, 1, 1.73205, 1.07197
19.7348, 0, 1.41421, 1.03
19.8246, 4, 2.44949, 1.00172
19.9145, 1, 1.73205, 0.951246
20.0043, 3, 2.23607, 0.877083
20.0942, 1, 1.73205, 0.789018
20.184, 1, 1.73205, 0.703602
20.2739, 0, 1.41421, 0.624878
20.3637, 3, 2.23607, 0.598581
20.4536, 1, 1.73205, 0.592943
20.5434, 1, 1.73205, 0.587981
20.6333, 2, 2, 0.581219
20.7231, 2, 2, 0.573777
20.813, 2, 2, 0.551374
20.9028, 1, 1.73205, 0.503893
20.9927, 1, 1.73205, 0.429706
21.0825, 1, 1.73205, 0.350993
21.1724, 0, 1.41421, 0.276251
21.2622, 1, 1.73205, 0.20624
21.3521, 0, 1.41421, 0.146635
21.4419, 1, 1.73205, 0.094419
21.5318, 2, 2, 0.0532724
21.6216, 3, 2.23607, 0.0237627
21.7115, 2, 2, 0.00558829
21.8013, 0, 1.41421, 0
21.8912, 2, 2, 0.00266209
21.981, 1, 1.73205, 0.0102385
22.0709, 2, 2, 0.0216829
22.1607, 1, 1.73205, 0.0362864
22.2506, 0, 1.41421, 0.0526944
22.3404, 0, 1.41421, 0.0685213
22.4303, 0, 1.41421, 0.0743238
22.5201, 1, 1.73205, 0.0668085
22.61, 1, 1.73205, 0.0572059
22.6998, 0, 1.41421, 0.0472809
22.7897, 0, 1.41421, 0.0382081
22.8795, 1, 1.73205, 0.0294097
22.9694, 1, 1.73205, 0.0191899
23.0592, 1, 1.73205, 0.00792804
23.1491, 1, 1.73205, 0.0014884
23.239, 0, 1.41421, 2.42573e-006
23.3288, 1, 1.73205, 3.53589e-006
23.4187, 0, 1.41421, 1.78501e-006
23.5085, 0, 1.41421, 3.36481e-007
23.5984, 0, 1.41421, 3.47529e-007
23.6882, 1, 1.73205, 1.13094e-006
23.7781, 1, 1.73205, 7.56483e-007
23.8679, 0, 1.41421, 4.37122e-007
23.9578, 0, 1.41421, 2.1924e-007
24.0476, 0, 1.41421, 2.42649e-008
24.1375, 0, 1.41421, 0
24.2273, 0, 1.41421, 0
24.3172, 0, 1.41421, 0
24.407, 0, 1.41421, 0
24.4969, 0, 1.41421, 3.6153e-025
24.5867, 0, 1.41421, 0
24.6766, 0, 1.41421, 0
24.7664, 0, 1.41421, 0
24.8563, 0, 1.41421, 0
24.9461, 1, 1.73205, 0
25.036, 0, 1.41421, 0
25.1258, 0, 1.41421, 0
25.2157, 0, 1.41421, 0
25.3055, 0, 1.41421, 0
25.3954, 0, 1.41421, 0
25.4852, 0, 1.41421, 0
25.5751, 1, 1.73205, 0
25.6649, 0, 1.41421, 0
25.7548, 1, 1.73205, 0
25.8446, 1, 1.73205, 0
25.9345, 0, 1.41421, 0
26.0243, 0, 1.41421, 0
26.1142, 0, 1.41421, 0
26.204, 0, 1.41421, 0
26.2425, 0, 1.41421, 0